Folder: PourmandLab/BioGrapher/MachineReading

Note: BioGrapher/MachineReading/Biographer_Export_2016_03_07_12_32_50.txt
Title	Concetration	Data

0.1 : 158.64	0.1	158.64482259570445
0.5 : 160.04	0.5	160.0389810590903
0.0 : 152.69	0.0	152.6868331332532
1.0 : 155.87	1.0	155.86981686007715
3.0 : 156.18	3.0	156.1820474856611

Note: BioGrapher/MachineReading/Biographer_Export_2016_03_07_12_38_55.txt
Title	Concetration	Data

0.1 : 158.64	0.1	158.64482259570445
0.5 : 160.04	0.5	160.0389810590903
0.0 : 152.69	0.0	152.6868331332532
1.0 : 155.87	1.0	155.86981686007715
3.0 : 156.18	3.0	156.1820474856611
Linear regression	0	154.45267581490992
Linear regression	0.9199999999999999	156.68450022675725
Linear regression	3.0	161.73036411441205
Est:2 : 159.3	2.0	159.30446801457802

Note: BioGrapher/MachineReading/Biographer_Export_2016_03_07_12_59_13.txt
Title	Concetration	Data
0.1 : 158.64	0.1	0.1
0.5 : 160.04	0.5	0.5
0.0 : 152.69	0	0
1.0 : 155.87	1	1
3.0 : 156.18	3	3
Linear regression	0	0
Linear regression	0.92	0.92
Linear regression	3	3

Note: BioGrapher/MachineReading/Biographer_Export_2016_03_07_13_00_12.txt
Title	Concetration	Data
0.1 : 158.64	0.1	158.64
0.5 : 160.04	0.5	160.04
0.0 : 152.69	0	152.69
1.0 : 155.87	1	155.87
3.0 : 156.18	3	156.18
Linear regression	0	154.45
Linear regression	0.92	156.68
Linear regression	3	161.73
Est:1 : 156.88	1	156.88

File: aa1.txt
Nov. 10, 2015   10:05:17
Linear Sweep Voltammetry
File: e:\10-11\ph17 mcf10a\acid\aa1.txt
Data Source:  Experiment
Instrument Model:  CHI1030C
Ref. Electrode:
Header:
Note:

Init E (V) = -1
Final E (V) = 1
Scan Rate (V/s) = 0.1
Sample Interval (V) = 0.001
Quiet Time (sec) = 2
Sensitivity (A/V) = 1e-7

Ep = 0.606V
ip = 2.992e-9A
Ah = 2.477e-9C

Potential/V, Current/A

-1.000, -4.169e-10
-0.993, -2.790e-10
-0.986, -2.220e-10
-0.979, -2.972e-10
-0.972, -3.597e-10
-0.965, -2.996e-10
-0.958, -2.058e-10
-0.951, -1.588e-10
-0.944, -2.323e-10
-0.937, -2.947e-10
-0.930, -2.648e-10
-0.923, -1.687e-10
-0.916, -1.299e-10
-0.909, -2.049e-10
-0.902, -2.771e-10
-0.895, -2.579e-10
-0.888, -1.760e-10
-0.881, -1.268e-10
-0.874, -2.016e-10
-0.867, -2.774e-10
-0.860, -2.483e-10
-0.853, -1.726e-10
-0.846, -1.850e-10
-0.839, -1.912e-10
-0.832, -2.570e-10
-0.825, -2.384e-10
-0.818, -1.447e-10
-0.811, -9.256e-11
-0.804, -1.620e-10
-0.797, -2.442e-10
-0.790, -2.212e-10
-0.783, -1.417e-10
-0.776, -8.392e-11
-0.769, -1.576e-10
-0.762, -2.366e-10
-0.755, -2.106e-10
-0.748, -1.243e-10
-0.741, -7.902e-11
-0.734, -1.441e-10
-0.727, -2.344e-10
-0.720, -2.352e-10
-0.713, -1.518e-10
-0.706, -9.523e-11
-0.699, -1.584e-10
-0.692, -2.311e-10
-0.685, -2.149e-10
-0.678, -1.233e-10
-0.671, -6.538e-11
-0.664, -1.299e-10
-0.657, -2.104e-10
-0.650, -2.002e-10
-0.643, -1.181e-10
-0.636, -6.245e-11
-0.629, -1.279e-10
-0.622, -2.047e-10
-0.615, -1.957e-10
-0.608, -1.077e-10
-0.601, -5.037e-11
-0.594, -1.032e-10
-0.587, -1.890e-10
-0.580, -1.800e-10
-0.573, -1.005e-10
-0.566, -3.605e-11
-0.559, -8.840e-11
-0.552, -1.733e-10
-0.545, -1.729e-10
-0.538, -9.082e-11
-0.531, -1.926e-11
-0.524, -6.298e-11
-0.517, -1.455e-10
-0.510, -1.484e-10
-0.503, -7.571e-11
-0.496, -1.387e-11
-0.489, -6.583e-11
-0.482, -1.596e-10
-0.475, -1.635e-10
-0.468, -8.671e-11
-0.461, -2.507e-11
-0.454, -6.260e-11
-0.447, -1.468e-10
-0.440, -1.492e-10
-0.433, -7.444e-11
-0.426, 5.071e-12
-0.419, -4.306e-11
-0.412, -1.401e-10
-0.405, -1.455e-10
-0.398, -6.807e-11
-0.391, 8.501e-12
-0.384, -3.178e-11
-0.377, -1.258e-10
-0.370, -1.398e-10
-0.363, -6.650e-11
-0.356, 3.192e-12
-0.349, -4.082e-11
-0.342, -1.272e-10
-0.335, -1.383e-10
-0.328, -6.013e-11
-0.321, 1.320e-11
-0.314, -1.687e-11
-0.307, -1.119e-10
-0.300, -1.262e-10
-0.293, -5.032e-11
-0.286, 2.596e-11
-0.279, -3.225e-12
-0.272, -8.700e-11
-0.265, -9.969e-11
-0.258, -2.597e-11
-0.251, 6.042e-11
-0.244, 2.760e-11
-0.237, -7.130e-11
-0.230, -9.901e-11
-0.223, -3.246e-11
-0.216, 6.080e-11
-0.209, 1.395e-11
-0.202, -9.360e-11
-0.195, -1.101e-10
-0.188, -2.893e-11
-0.181, 5.147e-11
-0.174, 1.315e-11
-0.167, -7.986e-11
-0.160, -9.431e-11
-0.153, -2.913e-11
-0.146, 4.439e-11
-0.139, 2.051e-11
-0.132, -7.377e-11
-0.125, -9.059e-11
-0.118, -2.335e-11
-0.111, 5.862e-11
-0.104, 3.651e-11
-0.097, -6.092e-11
-0.090, -8.804e-11
-0.083, -2.689e-11
-0.076, 5.351e-11
-0.069, 3.690e-11
-0.062, -5.248e-11
-0.055, -7.656e-11
-0.048, -1.167e-11
-0.041, 7.079e-11
-0.034, 5.201e-11
-0.027, -4.434e-11
-0.020, -7.794e-11
-0.013, -2.229e-11
-0.006, 6.243e-11
0.001, 5.279e-11
0.008, -3.649e-11
0.015, -7.795e-11
0.022, -2.337e-11
0.029, 6.272e-11
0.036, 5.357e-11
0.043, -3.463e-11
0.050, -6.990e-11
0.057, -1.651e-11
0.064, 7.175e-11
0.071, 6.446e-11
0.078, -2.904e-11
0.085, -6.755e-11
0.092, -1.288e-11
0.099, 7.047e-11
0.106, 6.642e-11
0.113, -2.472e-11
0.120, -6.736e-11
0.127, -1.593e-11
0.134, 7.066e-11
0.141, 7.083e-11
0.148, -2.041e-11
0.155, -6.403e-11
0.162, -1.486e-11
0.169, 7.458e-11
0.176, 7.750e-11
0.183, -1.256e-11
0.190, -5.667e-11
0.197, -8.873e-12
0.204, 8.135e-11
0.211, 8.761e-11
0.218, -6.874e-13
0.225, -4.706e-11
0.232, -3.366e-13
0.239, 9.194e-11
0.246, 1.017e-10
0.253, 1.502e-11
0.260, -3.115e-11
0.267, 1.635e-11
0.274, 1.115e-10
0.281, 1.278e-10
0.288, 4.152e-11
0.295, -2.195e-12
0.302, 4.786e-11
0.309, 1.466e-10
0.316, 1.688e-10
0.323, 8.767e-11
0.330, 4.326e-11
0.337, 9.489e-11
0.344, 1.959e-10
0.351, 2.265e-10
0.358, 1.495e-10
0.365, 1.063e-10
0.372, 1.622e-10
0.379, 2.727e-10
0.386, 3.152e-10
0.393, 2.545e-10
0.400, 2.271e-10
0.407, 3.007e-10
0.414, 4.503e-10
0.421, 5.360e-10
0.428, 5.245e-10
0.435, 5.564e-10
0.442, 6.935e-10
0.449, 8.822e-10
0.456, 1.012e-9
0.463, 1.022e-9
0.470, 1.051e-9
0.477, 1.167e-9
0.484, 1.338e-9
0.491, 1.456e-9
0.498, 1.492e-9
0.505, 1.553e-9
0.512, 1.724e-9
0.519, 1.950e-9
0.526, 2.111e-9
0.533, 2.161e-9
0.540, 2.221e-9
0.547, 2.381e-9
0.554, 2.607e-9
0.561, 2.767e-9
0.568, 2.818e-9
0.575, 2.896e-9
0.582, 3.118e-9
0.589, 3.379e-9
0.596, 3.577e-9
0.603, 3.646e-9
0.610, 3.604e-9
0.617, 3.540e-9
0.624, 3.550e-9
0.631, 3.600e-9
0.638, 3.531e-9
0.645, 3.488e-9
0.652, 3.537e-9
0.659, 3.636e-9
0.666, 3.683e-9
0.673, 3.614e-9
0.680, 3.579e-9
0.687, 3.628e-9
0.694, 3.747e-9
0.701, 3.804e-9
0.708, 3.746e-9
0.715, 3.715e-9
0.722, 3.769e-9
0.729, 3.901e-9
0.736, 3.969e-9
0.743, 3.899e-9
0.750, 3.847e-9
0.757, 3.914e-9
0.764, 4.028e-9
0.771, 4.081e-9
0.778, 4.035e-9
0.785, 3.998e-9
0.792, 4.038e-9
0.799, 4.129e-9
0.806, 4.194e-9
0.813, 4.150e-9
0.820, 4.086e-9
0.827, 4.176e-9
0.834, 4.342e-9
0.841, 4.461e-9
0.848, 4.464e-9
0.855, 4.356e-9
0.862, 4.388e-9
0.869, 4.528e-9
0.876, 4.625e-9
0.883, 4.603e-9
0.890, 4.587e-9
0.897, 4.625e-9
0.904, 4.726e-9
0.911, 4.816e-9
0.918, 4.786e-9
0.925, 4.736e-9
0.932, 4.790e-9
0.939, 4.918e-9
0.946, 5.003e-9
0.953, 4.985e-9
0.960, 4.950e-9
0.967, 5.020e-9
0.974, 5.160e-9
0.981, 5.255e-9
0.988, 5.306e-9
0.995, 5.278e-9
0.999, 5.389e-9

File: aa3.txt
Nov. 10, 2015   10:06:34
Linear Sweep Voltammetry
File: e:\10-11\ph17 mcf10a\acid\aa3.txt
Data Source:  Experiment
Instrument Model:  CHI1030C
Ref. Electrode:
Header:
Note:

Init E (V) = -1
Final E (V) = 1
Scan Rate (V/s) = 0.1
Sample Interval (V) = 0.001
Quiet Time (sec) = 2
Sensitivity (A/V) = 1e-7

Potential/V, Current/A

-1.000, -1.378e-9
-0.993, -9.644e-10
-0.986, -7.982e-10
-0.979, -8.875e-10
-0.972, -6.551e-10
-0.965, -7.202e-10
-0.958, -6.462e-10
-0.951, -6.790e-10
-0.944, -7.579e-10
-0.937, -8.201e-10
-0.930, -6.678e-10
-0.923, -5.321e-10
-0.916, -6.618e-10
-0.909, -6.042e-10
-0.902, -5.373e-10
-0.895, -5.628e-10
-0.888, -6.113e-10
-0.881, -5.282e-10
-0.874, -6.229e-10
-0.867, -5.635e-10
-0.860, -4.576e-10
-0.853, -4.367e-10
-0.846, -5.991e-10
-0.839, -5.867e-10
-0.832, -5.065e-10
-0.825, -4.022e-10
-0.818, -5.541e-10
-0.811, -5.759e-10
-0.804, -5.252e-10
-0.797, -4.949e-10
-0.790, -3.966e-10
-0.783, -4.844e-10
-0.776, -4.886e-10
-0.769, -5.394e-10
-0.762, -4.935e-10
-0.755, -4.084e-10
-0.748, -3.994e-10
-0.741, -5.062e-10
-0.734, -4.878e-10
-0.727, -4.129e-10
-0.720, -3.335e-10
-0.713, -4.353e-10
-0.706, -5.060e-10
-0.699, -4.802e-10
-0.692, -4.052e-10
-0.685, -3.230e-10
-0.678, -3.555e-10
-0.671, -4.533e-10
-0.664, -4.474e-10
-0.657, -3.787e-10
-0.650, -3.228e-10
-0.643, -3.505e-10
-0.636, -4.340e-10
-0.629, -4.195e-10
-0.622, -3.418e-10
-0.615, -2.677e-10
-0.608, -2.996e-10
-0.601, -3.964e-10
-0.594, -4.033e-10
-0.587, -3.274e-10
-0.580, -2.543e-10
-0.573, -2.995e-10
-0.566, -3.957e-10
-0.559, -3.831e-10
-0.552, -3.078e-10
-0.545, -2.341e-10
-0.538, -2.477e-10
-0.531, -3.374e-10
-0.524, -3.538e-10
-0.517, -2.869e-10
-0.510, -2.121e-10
-0.503, -2.526e-10
-0.496, -3.317e-10
-0.489, -3.485e-10
-0.482, -2.754e-10
-0.475, -1.939e-10
-0.468, -2.268e-10
-0.461, -3.241e-10
-0.454, -3.358e-10
-0.447, -2.639e-10
-0.440, -1.855e-10
-0.433, -2.225e-10
-0.426, -3.124e-10
-0.419, -3.281e-10
-0.412, -2.593e-10
-0.405, -1.817e-10
-0.398, -2.184e-10
-0.391, -3.095e-10
-0.384, -3.212e-10
-0.377, -2.484e-10
-0.370, -1.689e-10
-0.363, -1.972e-10
-0.356, -2.976e-10
-0.349, -3.136e-10
-0.342, -2.411e-10
-0.335, -1.678e-10
-0.328, -1.993e-10
-0.321, -2.862e-10
-0.314, -3.109e-10
-0.307, -2.445e-10
-0.300, -1.631e-10
-0.293, -1.943e-10
-0.286, -2.937e-10
-0.279, -3.153e-10
-0.272, -2.493e-10
-0.265, -1.579e-10
-0.258, -1.941e-10
-0.251, -2.781e-10
-0.244, -3.028e-10
-0.237, -2.338e-10
-0.230, -1.518e-10
-0.223, -1.873e-10
-0.216, -2.877e-10
-0.209, -3.016e-10
-0.202, -2.384e-10
-0.195, -1.586e-10
-0.188, -1.860e-10
-0.181, -2.769e-10
-0.174, -2.972e-10
-0.167, -2.318e-10
-0.160, -1.502e-10
-0.153, -1.783e-10
-0.146, -2.718e-10
-0.139, -2.934e-10
-0.132, -2.303e-10
-0.125, -1.544e-10
-0.118, -1.780e-10
-0.111, -2.711e-10
-0.104, -2.928e-10
-0.097, -2.312e-10
-0.090, -1.553e-10
-0.083, -1.724e-10
-0.076, -2.760e-10
-0.069, -3.058e-10
-0.062, -2.448e-10
-0.055, -1.644e-10
-0.048, -1.881e-10
-0.041, -2.866e-10
-0.034, -3.133e-10
-0.027, -2.537e-10
-0.020, -1.746e-10
-0.013, -1.994e-10
-0.006, -2.940e-10
0.001, -3.212e-10
0.008, -2.677e-10
0.015, -1.898e-10
0.022, -2.095e-10
0.029, -3.144e-10
0.036, -3.450e-10
0.043, -2.840e-10
0.050, -2.009e-10
0.057, -2.239e-10
0.064, -3.195e-10
0.071, -3.493e-10
0.078, -2.921e-10
0.085, -2.040e-10
0.092, -2.216e-10
0.099, -3.153e-10
0.106, -3.406e-10
0.113, -2.816e-10
0.120, -1.977e-10
0.127, -2.126e-10
0.134, -3.066e-10
0.141, -3.343e-10
0.148, -2.722e-10
0.155, -1.824e-10
0.162, -1.912e-10
0.169, -2.762e-10
0.176, -2.969e-10
0.183, -2.237e-10
0.190, -1.230e-10
0.197, -1.184e-10
0.204, -1.942e-10
0.211, -2.102e-10
0.218, -1.295e-10
0.225, -2.162e-11
0.232, -7.897e-12
0.239, -7.184e-11
0.246, -7.481e-11
0.253, 1.836e-11
0.260, 1.458e-10
0.267, 1.770e-10
0.274, 1.311e-10
0.281, 1.482e-10
0.288, 2.618e-10
0.295, 4.097e-10
0.302, 4.671e-10
0.309, 4.436e-10
0.316, 4.867e-10
0.323, 6.267e-10
0.330, 7.998e-10
0.337, 8.874e-10
0.344, 8.979e-10
0.351, 9.703e-10
0.358, 1.148e-9
0.365, 1.363e-9
0.372, 1.492e-9
0.379, 1.553e-9
0.386, 1.687e-9
0.393, 1.921e-9
0.400, 2.208e-9
0.407, 2.413e-9
0.414, 2.536e-9
0.421, 2.727e-9
0.428, 3.019e-9
0.435, 3.337e-9
0.442, 3.572e-9
0.449, 3.722e-9
0.456, 3.927e-9
0.463, 4.228e-9
0.470, 4.572e-9
0.477, 4.812e-9
0.484, 4.969e-9
0.491, 5.181e-9
0.498, 5.481e-9
0.505, 5.818e-9
0.512, 6.053e-9
0.519, 6.204e-9
0.526, 6.405e-9
0.533, 6.711e-9
0.540, 7.038e-9
0.547, 7.285e-9
0.554, 7.448e-9
0.561, 7.659e-9
0.568, 7.963e-9
0.575, 8.315e-9
0.582, 8.563e-9
0.589, 8.740e-9
0.596, 8.958e-9
0.603, 9.254e-9
0.610, 9.617e-9
0.617, 9.898e-9
0.624, 1.009e-8
0.631, 1.033e-8
0.638, 1.068e-8
0.645, 1.107e-8
0.652, 1.138e-8
0.659, 1.162e-8
0.666, 1.191e-8
0.673, 1.231e-8
0.680, 1.277e-8
0.687, 1.313e-8
0.694, 1.341e-8
0.701, 1.376e-8
0.708, 1.419e-8
0.715, 1.468e-8
0.722, 1.509e-8
0.729, 1.541e-8
0.736, 1.576e-8
0.743, 1.622e-8
0.750, 1.674e-8
0.757, 1.718e-8
0.764, 1.751e-8
0.771, 1.790e-8
0.778, 1.838e-8
0.785, 1.888e-8
0.792, 1.929e-8
0.799, 1.961e-8
0.806, 1.998e-8
0.813, 2.043e-8
0.820, 2.094e-8
0.827, 2.134e-8
0.834, 2.167e-8
0.841, 2.205e-8
0.848, 2.248e-8
0.855, 2.298e-8
0.862, 2.338e-8
0.869, 2.370e-8
0.876, 2.401e-8
0.883, 2.444e-8
0.890, 2.486e-8
0.897, 2.519e-8
0.904, 2.537e-8
0.911, 2.558e-8
0.918, 2.590e-8
0.925, 2.619e-8
0.932, 2.639e-8
0.939, 2.643e-8
0.946, 2.655e-8
0.953, 2.663e-8
0.960, 2.685e-8
0.967, 2.695e-8
0.974, 2.672e-8
0.981, 2.487e-8
0.988, 2.433e-8
0.995, 2.411e-8
0.999, 2.390e-8

File: aa4.txt
Nov. 10, 2015   10:07:12
Linear Sweep Voltammetry
File: e:\10-11\ph17 mcf10a\acid\aa4.txt
Data Source:  Experiment
Instrument Model:  CHI1030C
Ref. Electrode:
Header:
Note:

Init E (V) = -1
Final E (V) = 1
Scan Rate (V/s) = 0.1
Sample Interval (V) = 0.001
Quiet Time (sec) = 2
Sensitivity (A/V) = 1e-7

Potential/V, Current/A

-1.000, -6.291e-9
-0.993, -5.309e-9
-0.986, -6.632e-9
-0.979, -4.063e-9
-0.972, -1.997e-9
-0.965, -2.128e-9
-0.958, -1.071e-9
-0.951, -1.903e-9
-0.944, -1.136e-9
-0.937, -1.527e-9
-0.930, -1.238e-9
-0.923, -1.315e-9
-0.916, -1.231e-9
-0.909, -1.529e-9
-0.902, -2.702e-9
-0.895, -4.174e-9
-0.888, -1.052e-8
-0.881, -6.160e-9
-0.874, -1.321e-8
-0.867, -3.680e-9
-0.860, -1.263e-8
-0.853, -3.744e-9
-0.846, -6.289e-9
-0.839, -1.259e-8
-0.832, -4.207e-9
-0.825, -5.519e-9
-0.818, -9.247e-9
-0.811, -1.478e-8
-0.804, -1.385e-8
-0.797, -1.500e-8
-0.790, -3.121e-9
-0.783, -2.327e-9
-0.776, -1.876e-9
-0.769, -1.965e-9
-0.762, -2.326e-9
-0.755, -2.477e-9
-0.748, -2.882e-9
-0.741, -4.780e-9
-0.734, -6.949e-9
-0.727, -1.058e-8
-0.720, -1.184e-8
-0.713, -5.947e-9
-0.706, -1.010e-8
-0.699, -1.717e-8
-0.692, -6.131e-9
-0.685, -6.428e-9
-0.678, -9.236e-9
-0.671, -1.107e-8
-0.664, -1.131e-8
-0.657, -1.051e-8
-0.650, -1.135e-8
-0.643, -7.597e-9
-0.636, -7.216e-9
-0.629, -8.514e-9
-0.622, -7.005e-9
-0.615, -9.161e-9
-0.608, -1.044e-8
-0.601, -8.778e-9
-0.594, -9.368e-9
-0.587, -1.021e-8
-0.580, -9.000e-9
-0.573, -9.801e-9
-0.566, -7.788e-9
-0.559, -8.688e-9
-0.552, -8.586e-9
-0.545, -8.476e-9
-0.538, -7.566e-9
-0.531, -6.697e-9
-0.524, -6.863e-9
-0.517, -6.786e-9
-0.510, -6.611e-9
-0.503, -7.250e-9
-0.496, -6.526e-9
-0.489, -7.440e-9
-0.482, -5.227e-9
-0.475, -5.910e-9
-0.468, -4.973e-9
-0.461, -5.267e-9
-0.454, -4.494e-9
-0.447, -4.801e-9
-0.440, -4.454e-9
-0.433, -3.976e-9
-0.426, -3.549e-9
-0.419, -3.711e-9
-0.412, -3.531e-9
-0.405, -3.479e-9
-0.398, -3.411e-9
-0.391, -3.393e-9
-0.384, -3.042e-9
-0.377, -2.886e-9
-0.370, -2.737e-9
-0.363, -2.594e-9
-0.356, -2.485e-9
-0.349, -2.305e-9
-0.342, -2.324e-9
-0.335, -2.354e-9
-0.328, -2.103e-9
-0.321, -1.899e-9
-0.314, -1.799e-9
-0.307, -1.880e-9
-0.300, -1.801e-9
-0.293, -1.582e-9
-0.286, -1.410e-9
-0.279, -1.369e-9
-0.272, -1.418e-9
-0.265, -1.396e-9
-0.258, -1.285e-9
-0.251, -1.146e-9
-0.244, -1.116e-9
-0.237, -1.137e-9
-0.230, -1.179e-9
-0.223, -1.113e-9
-0.216, -1.012e-9
-0.209, -9.788e-10
-0.202, -1.055e-9
-0.195, -1.092e-9
-0.188, -1.038e-9
-0.181, -9.273e-10
-0.174, -8.909e-10
-0.167, -9.468e-10
-0.160, -9.995e-10
-0.153, -9.474e-10
-0.146, -8.377e-10
-0.139, -8.184e-10
-0.132, -8.756e-10
-0.125, -9.316e-10
-0.118, -8.882e-10
-0.111, -7.923e-10
-0.104, -7.546e-10
-0.097, -8.239e-10
-0.090, -9.150e-10
-0.083, -8.753e-10
-0.076, -7.706e-10
-0.069, -7.194e-10
-0.062, -7.708e-10
-0.055, -8.366e-10
-0.048, -8.050e-10
-0.041, -6.992e-10
-0.034, -6.625e-10
-0.027, -7.262e-10
-0.020, -7.961e-10
-0.013, -7.705e-10
-0.006, -6.761e-10
0.001, -6.244e-10
0.008, -6.929e-10
0.015, -7.480e-10
0.022, -7.177e-10
0.029, -6.084e-10
0.036, -5.460e-10
0.043, -6.036e-10
0.050, -6.626e-10
0.057, -6.200e-10
0.064, -5.152e-10
0.071, -4.449e-10
0.078, -5.001e-10
0.085, -5.604e-10
0.092, -5.237e-10
0.099, -4.200e-10
0.106, -3.480e-10
0.113, -3.937e-10
0.120, -4.536e-10
0.127, -4.221e-10
0.134, -3.173e-10
0.141, -2.404e-10
0.148, -2.868e-10
0.155, -3.497e-10
0.162, -3.202e-10
0.169, -2.189e-10
0.176, -1.408e-10
0.183, -1.855e-10
0.190, -2.514e-10
0.197, -2.236e-10
0.204, -1.239e-10
0.211, -4.417e-11
0.218, -8.513e-11
0.225, -1.501e-10
0.232, -1.271e-10
0.239, -2.657e-11
0.246, 5.697e-11
0.253, 2.385e-11
0.260, -3.714e-11
0.267, -7.609e-12
0.274, 9.950e-11
0.281, 1.924e-10
0.288, 1.721e-10
0.295, 1.210e-10
0.302, 1.639e-10
0.309, 2.857e-10
0.316, 4.031e-10
0.323, 4.013e-10
0.330, 3.720e-10
0.337, 4.307e-10
0.344, 5.741e-10
0.351, 7.085e-10
0.358, 7.346e-10
0.365, 7.256e-10
0.372, 8.023e-10
0.379, 9.648e-10
0.386, 1.130e-9
0.393, 1.183e-9
0.400, 1.203e-9
0.407, 1.319e-9
0.414, 1.519e-9
0.421, 1.738e-9
0.428, 1.856e-9
0.435, 1.935e-9
0.442, 2.114e-9
0.449, 2.370e-9
0.456, 2.648e-9
0.463, 2.806e-9
0.470, 2.943e-9
0.477, 3.172e-9
0.484, 3.513e-9
0.491, 3.886e-9
0.498, 4.166e-9
0.505, 4.435e-9
0.512, 4.802e-9
0.519, 5.259e-9
0.526, 5.664e-9
0.533, 5.905e-9
0.540, 6.087e-9
0.547, 6.357e-9
0.554, 6.796e-9
0.561, 7.280e-9
0.568, 7.656e-9
0.575, 7.963e-9
0.582, 8.316e-9
0.589, 8.792e-9
0.596, 9.228e-9
0.603, 9.572e-9
0.610, 9.885e-9
0.617, 1.027e-8
0.624, 1.078e-8
0.631, 1.128e-8
0.638, 1.171e-8
0.645, 1.207e-8
0.652, 1.250e-8
0.659, 1.312e-8
0.666, 1.371e-8
0.673, 1.424e-8
0.680, 1.474e-8
0.687, 1.531e-8
0.694, 1.596e-8
0.701, 1.662e-8
0.708, 1.720e-8
0.715, 1.770e-8
0.722, 1.827e-8
0.729, 1.889e-8
0.736, 1.951e-8
0.743, 2.002e-8
0.750, 2.047e-8
0.757, 2.097e-8
0.764, 2.156e-8
0.771, 2.219e-8
0.778, 2.274e-8
0.785, 2.323e-8
0.792, 2.377e-8
0.799, 2.442e-8
0.806, 2.507e-8
0.813, 2.562e-8
0.820, 2.607e-8
0.827, 2.661e-8
0.834, 2.724e-8
0.841, 2.787e-8
0.848, 2.840e-8
0.855, 2.885e-8
0.862, 2.936e-8
0.869, 2.999e-8
0.876, 3.062e-8
0.883, 3.111e-8
0.890, 3.156e-8
0.897, 3.195e-8
0.904, 3.246e-8
0.911, 3.299e-8
0.918, 3.337e-8
0.925, 3.370e-8
0.932, 3.409e-8
0.939, 3.451e-8
0.946, 3.494e-8
0.953, 3.529e-8
0.960, 3.552e-8
0.967, 3.578e-8
0.974, 3.611e-8
0.981, 3.642e-8
0.988, 3.659e-8
0.995, 3.673e-8
0.999, 3.683e-8

File: aa5.txt
Nov. 10, 2015   10:07:50
Linear Sweep Voltammetry
File: e:\10-11\ph17 mcf10a\acid\aa5.txt
Data Source:  Experiment
Instrument Model:  CHI1030C
Ref. Electrode:
Header:
Note:

Init E (V) = -1
Final E (V) = 1
Scan Rate (V/s) = 0.1
Sample Interval (V) = 0.001
Quiet Time (sec) = 2
Sensitivity (A/V) = 1e-7

Potential/V, Current/A

-1.000, -1.361e-8
-0.993, -1.024e-8
-0.986, -5.065e-9
-0.979, -2.103e-8
-0.972, -5.765e-9
-0.965, -1.238e-8
-0.958, -6.347e-9
-0.951, -6.085e-9
-0.944, -1.452e-8
-0.937, -6.914e-9
-0.930, -2.709e-9
-0.923, -4.974e-9
-0.916, -7.196e-9
-0.909, -1.743e-8
-0.902, -8.933e-9
-0.895, -3.705e-9
-0.888, -6.182e-9
-0.881, -9.572e-9
-0.874, -1.072e-8
-0.867, -1.113e-8
-0.860, -2.238e-8
-0.853, -3.609e-9
-0.846, -2.675e-9
-0.839, -2.620e-9
-0.832, -3.022e-9
-0.825, -3.406e-9
-0.818, -3.247e-9
-0.811, -3.584e-9
-0.804, -3.587e-9
-0.797, -3.394e-9
-0.790, -3.643e-9
-0.783, -3.459e-9
-0.776, -3.157e-9
-0.769, -3.728e-9
-0.762, -3.739e-9
-0.755, -4.026e-9
-0.748, -3.831e-9
-0.741, -4.424e-9
-0.734, -4.007e-9
-0.727, -4.814e-9
-0.720, -5.128e-9
-0.713, -5.007e-9
-0.706, -5.189e-9
-0.699, -4.729e-9
-0.692, -5.696e-9
-0.685, -6.002e-9
-0.678, -6.069e-9
-0.671, -5.728e-9
-0.664, -6.642e-9
-0.657, -7.282e-9
-0.650, -8.297e-9
-0.643, -9.450e-9
-0.636, -8.059e-9
-0.629, -8.478e-9
-0.622, -8.273e-9
-0.615, -7.273e-9
-0.608, -7.566e-9
-0.601, -7.401e-9
-0.594, -7.816e-9
-0.587, -7.909e-9
-0.580, -7.860e-9
-0.573, -5.464e-9
-0.566, -4.512e-9
-0.559, -4.042e-9
-0.552, -4.321e-9
-0.545, -3.784e-9
-0.538, -3.709e-9
-0.531, -4.432e-9
-0.524, -4.404e-9
-0.517, -4.772e-9
-0.510, -4.400e-9
-0.503, -4.323e-9
-0.496, -3.743e-9
-0.489, -3.557e-9
-0.482, -3.879e-9
-0.475, -3.568e-9
-0.468, -2.823e-9
-0.461, -2.612e-9
-0.454, -2.625e-9
-0.447, -2.855e-9
-0.440, -2.636e-9
-0.433, -2.637e-9
-0.426, -2.170e-9
-0.419, -2.215e-9
-0.412, -2.196e-9
-0.405, -2.022e-9
-0.398, -1.812e-9
-0.391, -1.648e-9
-0.384, -1.702e-9
-0.377, -1.726e-9
-0.370, -1.555e-9
-0.363, -1.413e-9
-0.356, -1.316e-9
-0.349, -1.235e-9
-0.342, -1.261e-9
-0.335, -1.198e-9
-0.328, -1.065e-9
-0.321, -8.812e-10
-0.314, -8.597e-10
-0.307, -8.554e-10
-0.300, -8.189e-10
-0.293, -7.258e-10
-0.286, -7.000e-10
-0.279, -7.057e-10
-0.272, -7.692e-10
-0.265, -7.688e-10
-0.258, -6.550e-10
-0.251, -5.356e-10
-0.244, -5.717e-10
-0.237, -6.581e-10
-0.230, -6.772e-10
-0.223, -5.789e-10
-0.216, -5.026e-10
-0.209, -5.328e-10
-0.202, -6.466e-10
-0.195, -6.584e-10
-0.188, -6.028e-10
-0.181, -5.414e-10
-0.174, -5.747e-10
-0.167, -6.651e-10
-0.160, -6.757e-10
-0.153, -6.228e-10
-0.146, -5.216e-10
-0.139, -5.633e-10
-0.132, -6.520e-10
-0.125, -6.510e-10
-0.118, -5.451e-10
-0.111, -4.482e-10
-0.104, -4.556e-10
-0.097, -5.673e-10
-0.090, -5.754e-10
-0.083, -5.259e-10
-0.076, -4.710e-10
-0.069, -4.791e-10
-0.062, -5.651e-10
-0.055, -5.787e-10
-0.048, -4.984e-10
-0.041, -4.400e-10
-0.034, -4.299e-10
-0.027, -4.733e-10
-0.020, -4.911e-10
-0.013, -4.214e-10
-0.006, -3.370e-10
0.001, -3.600e-10
0.008, -4.424e-10
0.015, -4.589e-10
0.022, -3.891e-10
0.029, -2.939e-10
0.036, -3.103e-10
0.043, -3.908e-10
0.050, -4.059e-10
0.057, -3.325e-10
0.064, -2.450e-10
0.071, -2.519e-10
0.078, -3.371e-10
0.085, -3.604e-10
0.092, -2.899e-10
0.099, -2.003e-10
0.106, -2.065e-10
0.113, -2.960e-10
0.120, -3.163e-10
0.127, -2.484e-10
0.134, -1.562e-10
0.141, -1.612e-10
0.148, -2.469e-10
0.155, -2.679e-10
0.162, -2.002e-10
0.169, -1.084e-10
0.176, -1.080e-10
0.183, -1.910e-10
0.190, -2.133e-10
0.197, -1.407e-10
0.204, -4.316e-11
0.211, -4.034e-11
0.218, -1.191e-10
0.225, -1.373e-10
0.232, -5.964e-11
0.239, 4.746e-11
0.246, 5.903e-11
0.253, -8.648e-12
0.260, -1.908e-11
0.267, 6.525e-11
0.274, 1.843e-10
0.281, 2.139e-10
0.288, 1.593e-10
0.295, 1.692e-10
0.302, 2.762e-10
0.309, 4.204e-10
0.316, 4.752e-10
0.323, 4.472e-10
0.330, 4.766e-10
0.337, 6.001e-10
0.344, 7.669e-10
0.351, 8.364e-10
0.358, 8.288e-10
0.365, 8.829e-10
0.372, 1.025e-9
0.379, 1.199e-9
0.386, 1.299e-9
0.393, 1.313e-9
0.400, 1.374e-9
0.407, 1.545e-9
0.414, 1.767e-9
0.421, 1.892e-9
0.428, 1.960e-9
0.435, 2.094e-9
0.442, 2.327e-9
0.449, 2.617e-9
0.456, 2.834e-9
0.463, 2.988e-9
0.470, 3.197e-9
0.477, 3.410e-9
0.484, 3.759e-9
0.491, 4.068e-9
0.498, 4.281e-9
0.505, 4.585e-9
0.512, 4.974e-9
0.519, 5.404e-9
0.526, 5.803e-9
0.533, 6.107e-9
0.540, 6.467e-9
0.547, 6.929e-9
0.554, 7.485e-9
0.561, 8.008e-9
0.568, 8.423e-9
0.575, 8.852e-9
0.582, 9.372e-9
0.589, 9.929e-9
0.596, 1.043e-8
0.603, 1.082e-8
0.610, 1.118e-8
0.617, 1.169e-8
0.624, 1.233e-8
0.631, 1.286e-8
0.638, 1.327e-8
0.645, 1.374e-8
0.652, 1.429e-8
0.659, 1.491e-8
0.666, 1.546e-8
0.673, 1.589e-8
0.680, 1.639e-8
0.687, 1.699e-8
0.694, 1.764e-8
0.701, 1.823e-8
0.708, 1.873e-8
0.715, 1.925e-8
0.722, 1.989e-8
0.729, 2.058e-8
0.736, 2.118e-8
0.743, 2.168e-8
0.750, 2.219e-8
0.757, 2.277e-8
0.764, 2.343e-8
0.771, 2.401e-8
0.778, 2.448e-8
0.785, 2.498e-8
0.792, 2.559e-8
0.799, 2.623e-8
0.806, 2.682e-8
0.813, 2.730e-8
0.820, 2.778e-8
0.827, 2.838e-8
0.834, 2.904e-8
0.841, 2.962e-8
0.848, 3.010e-8
0.855, 3.059e-8
0.862, 3.116e-8
0.869, 3.182e-8
0.876, 3.239e-8
0.883, 3.282e-8
0.890, 3.328e-8
0.897, 3.386e-8
0.904, 3.445e-8
0.911, 3.495e-8
0.918, 3.524e-8
0.925, 3.574e-8
0.932, 3.621e-8
0.939, 3.677e-8
0.946, 3.721e-8
0.953, 3.757e-8
0.960, 3.791e-8
0.967, 3.830e-8
0.974, 3.875e-8
0.981, 3.913e-8
0.988, 3.936e-8
0.995, 3.963e-8
0.999, 3.991e-8